BlockNumber,BlockType,TrialNum,Stim,Response,ResponseTime
-1,death-me,2,mine,0,0
-1,death-me,3,their,0,0
-1,death-me,4,deceased,0,0
-1,death-me,5,breathing,0,0
-1,death-me,6,funeral,1,1690
-1,death-me,7,my,1,991
-1,death-me,8,suicide,1,1657
-1,death-me,9,thrive,1,1141
-1,death-me,10,myself,0,0
-1,death-me,11,self,1,1024
0,life-me,12,breathing,1,332
0,life-me,13,funeral,1,1040
0,life-me,14,they,1,898
0,life-me,15,myself,1,832
0,life-me,16,other,0,0
0,life-me,17,self,1,1332
0,life-me,18,survive,1,1382
0,life-me,19,lifeless,0,0
0,life-me,20,my,1,999
0,life-me,21,their,0,0
0,life-me,22,I,1,907
0,life-me,23,alive,1,940
0,life-me,24,live,1,1132
0,life-me,25,thrive,1,1181
0,life-me,26,deceased,1,1899
0,life-me,27,suicide,0,0
0,life-me,28,them,0,0
0,life-me,29,die,0,0
0,life-me,30,mine,1,782
0,life-me,31,theirs,0,0
1,death-me,32,theirs,0,0
1,death-me,33,their,0,0
1,death-me,34,suicide,1,865
1,death-me,35,live,0,0
1,death-me,36,alive,1,1239
1,death-me,37,myself,1,882
1,death-me,38,lifeless,1,1540
1,death-me,39,other,0,0
1,death-me,40,my,1,833
1,death-me,41,deceased,1,1257
1,death-me,42,thrive,0,0
1,death-me,43,they,0,0
1,death-me,44,breathing,1,1373
1,death-me,45,mine,1,1449
1,death-me,46,die,1,1291
1,death-me,47,funeral,1,999
1,death-me,48,survive,0,0
1,death-me,49,self,1,756
1,death-me,50,I,1,1518
1,death-me,51,them,0,0
2,life-me,52,my,1,1374
2,life-me,53,suicide,0,0
2,life-me,54,myself,1,682
2,life-me,55,die,0,0
2,life-me,56,mine,1,682
2,life-me,57,I,1,724
2,life-me,58,funeral,0,0
2,life-me,59,other,0,0
2,life-me,60,self,1,657
2,life-me,61,them,0,0
2,life-me,62,theirs,0,0
2,life-me,63,deceased,1,915
2,life-me,64,lifeless,0,0
2,life-me,65,they,0,0
2,life-me,66,alive,1,991
2,life-me,67,live,1,907
2,life-me,68,breathing,1,840
2,life-me,69,survive,1,1099
2,life-me,70,their,0,0
2,life-me,71,thrive,1,1698
3,death-me,72,self,1,1482
3,death-me,73,survive,0,0
3,death-me,74,die,1,1441
3,death-me,75,myself,1,1073
3,death-me,76,live,0,0
3,death-me,77,them,0,0
3,death-me,78,alive,0,0
3,death-me,79,breathing,1,1574
3,death-me,80,thrive,1,1582
3,death-me,81,their,0,0
3,death-me,82,suicide,1,1515
3,death-me,83,funeral,1,841
3,death-me,84,mine,1,924
3,death-me,85,I,1,757
3,death-me,86,lifeless,1,1190
3,death-me,87,they,0,0
3,death-me,88,my,1,1282
3,death-me,89,theirs,0,0
3,death-me,90,other,0,0
3,death-me,91,deceased,1,874
4,life-me,92,survive,1,1489
4,life-me,93,them,0,0
4,life-me,94,self,1,1665
4,life-me,95,suicide,1,1423
4,life-me,96,live,1,1382
4,life-me,97,myself,1,898
4,life-me,98,I,1,1024
4,life-me,99,their,1,1232
4,life-me,100,my,1,699
4,life-me,101,thrive,1,1274
4,life-me,102,they,1,1082
4,life-me,103,breathing,1,774
4,life-me,104,alive,1,699
4,life-me,105,lifeless,1,1032
4,life-me,106,funeral,1,940
4,life-me,107,deceased,1,807
4,life-me,108,theirs,1,965
4,life-me,109,other,1,1265
4,life-me,110,mine,1,607
4,life-me,111,die,1,1182
5,death-me,112,alive,0,0
5,death-me,113,their,1,1090
5,death-me,114,funeral,1,657
5,death-me,115,mine,1,649
5,death-me,116,suicide,1,715
5,death-me,117,thrive,1,1057
5,death-me,118,I,1,932
5,death-me,119,deceased,1,857
5,death-me,120,lifeless,1,999
5,death-me,121,breathing,1,932
5,death-me,122,theirs,1,966
5,death-me,123,them,1,922
5,death-me,124,die,1,1074
5,death-me,125,they,1,940
5,death-me,126,myself,1,749
5,death-me,127,other,1,924
5,death-me,128,live,1,1190
5,death-me,129,my,1,982
5,death-me,130,self,1,1149
5,death-me,131,survive,1,1249
6,life-me,132,breathing,1,1241
6,life-me,133,other,1,982
6,life-me,134,they,1,1057
6,life-me,135,their,1,799
6,life-me,136,I,1,757
6,life-me,137,deceased,1,917
6,life-me,138,my,1,698
6,life-me,139,alive,1,857
6,life-me,140,myself,1,732
6,life-me,141,live,1,640
6,life-me,142,lifeless,1,932
6,life-me,143,self,1,882
6,life-me,144,theirs,1,757
6,life-me,145,survive,1,1182
6,life-me,146,mine,1,1165
6,life-me,147,thrive,1,1165
6,life-me,148,funeral,1,864
6,life-me,149,suicide,1,1040
6,life-me,150,them,1,1029
6,life-me,151,die,1,974
7,death-me,152,I,1,1616
7,death-me,153,live,1,1198
7,death-me,154,die,1,873
7,death-me,155,breathing,1,1116
7,death-me,156,self,1,732
7,death-me,157,survive,1,1132
7,death-me,158,my,1,724
7,death-me,159,suicide,1,873
7,death-me,160,alive,1,757
7,death-me,161,mine,1,773
7,death-me,162,theirs,1,857
7,death-me,163,thrive,1,1224
7,death-me,164,lifeless,1,839
7,death-me,165,funeral,1,807
7,death-me,166,their,1,807
7,death-me,167,them,1,681
7,death-me,168,myself,1,849
7,death-me,169,other,1,974
7,death-me,170,they,1,840
7,death-me,171,deceased,1,782
8,life-me,172,alive,1,1415
8,life-me,173,self,1,790
8,life-me,174,myself,1,689
8,life-me,175,breathing,1,907
8,life-me,176,thrive,1,774
8,life-me,177,theirs,1,857
8,life-me,178,them,1,890
8,life-me,179,mine,1,840
8,life-me,180,die,1,907
8,life-me,181,their,1,756
8,life-me,182,live,1,715
8,life-me,183,I,1,857
8,life-me,184,suicide,1,898
8,life-me,185,survive,1,957
8,life-me,186,they,1,949
8,life-me,187,my,1,714
8,life-me,188,funeral,1,1782
8,life-me,189,lifeless,1,714
8,life-me,190,deceased,1,857
8,life-me,191,other,1,723
9,death-me,192,suicide,1,1541
9,death-me,193,other,1,890
9,death-me,194,deceased,1,707
9,death-me,195,breathing,1,1282
9,death-me,196,I,1,949
9,death-me,197,self,1,857
9,death-me,198,them,1,748
9,death-me,199,live,1,1083
9,death-me,200,die,1,641
9,death-me,201,myself,1,1090
9,death-me,202,theirs,1,882
9,death-me,203,lifeless,1,1524
9,death-me,204,mine,1,647
9,death-me,205,their,1,1256
9,death-me,206,my,1,661
9,death-me,207,funeral,1,774
9,death-me,208,alive,1,773
9,death-me,209,survive,1,1624
9,death-me,210,they,1,815
9,death-me,211,thrive,1,1149
10,life-me,212,thrive,1,1015
10,life-me,213,them,1,774
10,life-me,214,live,1,773
10,life-me,215,breathing,1,732
10,life-me,216,mine,1,641
10,life-me,217,die,1,982
10,life-me,218,their,1,924
10,life-me,219,suicide,1,749
10,life-me,220,alive,1,798
10,life-me,221,funeral,1,774
10,life-me,222,they,1,900
10,life-me,223,my,1,907
10,life-me,224,lifeless,1,932
10,life-me,225,theirs,1,773
10,life-me,226,I,1,715
10,life-me,227,other,1,1590
10,life-me,228,survive,1,865
10,life-me,229,myself,1,674
10,life-me,230,deceased,1,707
10,life-me,231,self,1,715
11,death-me,232,deceased,1,1665
11,death-me,233,they,1,1032
11,death-me,234,lifeless,1,1031
11,death-me,235,them,1,931
11,death-me,236,self,1,898
11,death-me,237,die,1,1182
11,death-me,238,other,1,931
11,death-me,239,I,1,707
11,death-me,240,their,1,799
11,death-me,241,suicide,1,1165
11,death-me,242,theirs,1,1041
11,death-me,243,thrive,1,1199
11,death-me,244,alive,1,949
11,death-me,245,funeral,1,799
11,death-me,246,mine,1,865
11,death-me,247,survive,1,1250
11,death-me,248,breathing,1,874
11,death-me,249,myself,1,881
11,death-me,250,my,1,581
11,death-me,251,live,1,1131
12,life-me,252,funeral,0,0
12,life-me,253,die,1,790
12,life-me,254,them,1,857
12,life-me,255,other,1,823
12,life-me,256,theirs,1,874
12,life-me,257,self,1,973
12,life-me,258,mine,1,791
12,life-me,259,I,1,582
12,life-me,260,alive,1,598
12,life-me,261,they,1,757
12,life-me,262,lifeless,1,857
12,life-me,263,breathing,1,1157
12,life-me,264,survive,1,1258
12,life-me,265,myself,1,732
12,life-me,266,my,1,740
12,life-me,267,live,1,1049
12,life-me,268,their,1,857
12,life-me,269,deceased,1,1148
12,life-me,270,suicide,1,723
12,life-me,271,thrive,1,848
13,death-me,272,thrive,1,1265
13,death-me,273,breathing,1,1032
13,death-me,274,suicide,1,874
13,death-me,275,I,1,682
13,death-me,276,theirs,1,782
13,death-me,277,die,1,814
13,death-me,278,mine,1,857
13,death-me,279,alive,1,840
13,death-me,280,them,1,965
13,death-me,281,self,1,732
13,death-me,282,they,1,974
13,death-me,283,my,1,690
13,death-me,284,other,1,798
13,death-me,285,survive,1,1082
13,death-me,286,live,1,756
13,death-me,287,myself,1,824
13,death-me,288,funeral,1,723
13,death-me,289,deceased,1,707
13,death-me,290,lifeless,1,1023
13,death-me,291,their,1,849
14,life-me,292,suicide,1,1615
14,life-me,293,theirs,1,848
14,life-me,294,thrive,1,707
14,life-me,295,lifeless,1,857
14,life-me,296,mine,1,898
14,life-me,297,myself,1,585
14,life-me,298,they,1,890
14,life-me,299,self,1,799
14,life-me,300,I,1,741
14,life-me,301,breathing,1,681
14,life-me,302,die,1,715
14,life-me,303,live,1,707
14,life-me,304,them,1,757
14,life-me,305,survive,1,899
14,life-me,306,deceased,1,824
14,life-me,307,their,1,823
14,life-me,308,funeral,1,741
14,life-me,309,my,1,766
14,life-me,310,other,1,1307
14,life-me,311,alive,1,1007
15,death-me,312,alive,1,1599
15,death-me,313,myself,1,732
15,death-me,314,self,1,741
15,death-me,315,thrive,1,932
15,death-me,316,die,1,657
15,death-me,317,my,1,1440
15,death-me,318,lifeless,1,1099
15,death-me,319,suicide,1,632
15,death-me,320,live,1,979
15,death-me,321,other,1,1140
15,death-me,322,their,1,1107
15,death-me,323,I,1,615
15,death-me,324,theirs,1,788
15,death-me,325,them,1,673
15,death-me,326,funeral,1,1424
15,death-me,327,survive,1,1482
15,death-me,328,breathing,1,1357
15,death-me,329,deceased,1,1440
15,death-me,330,mine,1,757
15,death-me,331,they,1,765
16,life-me,332,deceased,1,1007
16,life-me,333,live,1,707
16,life-me,334,them,1,865
16,life-me,335,theirs,1,840
16,life-me,336,their,1,707
16,life-me,337,funeral,1,1132
16,life-me,338,breathing,1,781
16,life-me,339,my,1,681
16,life-me,340,mine,1,807
16,life-me,341,other,1,724
16,life-me,342,self,1,707
16,life-me,343,I,1,623
16,life-me,344,myself,1,615
16,life-me,345,they,1,707
16,life-me,346,alive,1,1199
16,life-me,347,lifeless,1,649
16,life-me,348,survive,1,782
16,life-me,349,die,1,715
16,life-me,350,thrive,1,1074
16,life-me,351,suicide,1,782
17,death-me,352,suicide,1,956
17,death-me,353,theirs,1,1191
17,death-me,354,self,1,825
17,death-me,355,their,1,924
17,death-me,356,live,1,1073
17,death-me,357,deceased,1,707
17,death-me,358,them,1,765
17,death-me,359,mine,1,698
17,death-me,360,they,1,741
17,death-me,361,my,1,674
17,death-me,362,myself,1,723
17,death-me,363,other,1,707
17,death-me,364,funeral,1,966
17,death-me,365,die,1,665
17,death-me,366,thrive,1,982
17,death-me,367,breathing,1,1740
17,death-me,368,lifeless,1,1148
17,death-me,369,alive,1,882
17,death-me,370,I,1,682
17,death-me,371,survive,1,982
