,BlockNumber,BlockType,TrialNum,Stim,Response,ResponseTime,Category,Match,Type
0,-1,death-me,2,I,0,0,Me,1,2
1,-1,death-me,3,their,1,1357,Not me,0,2
2,-1,death-me,4,suicide,1,1155,Death,1,2
3,-1,death-me,5,live,1,1107,Life,0,2
4,-1,death-me,6,deceased,1,1398,Death,1,2
5,-1,death-me,7,alive,1,1056,Life,0,2
6,-1,death-me,8,mine,1,1413,Me,1,2
7,-1,death-me,9,funeral,1,998,Death,1,2
8,-1,death-me,10,they,1,790,Not me,0,2
9,-1,death-me,11,survive,1,955,Life,0,2
10,0,life-me,12,mine,1,972,Me,1,1
11,0,life-me,13,I,1,1058,Me,1,1
12,0,life-me,14,myself,1,721,Me,1,1
13,0,life-me,15,suicide,1,1023,Death,0,1
14,0,life-me,16,my,1,1333,Me,1,1
15,0,life-me,17,die,1,1373,Death,0,1
16,0,life-me,18,they,1,1198,Not me,0,1
17,0,life-me,19,them,1,666,Not me,0,1
18,0,life-me,20,survive,1,1039,Life,1,1
19,0,life-me,21,thrive,1,1449,Life,1,1
20,0,life-me,22,deceased,1,891,Death,0,1
21,0,life-me,23,theirs,1,1057,Not me,0,1
22,0,life-me,24,funeral,1,1131,Death,0,1
23,0,life-me,25,breathing,1,848,Life,1,1
24,0,life-me,26,their,1,840,Not me,0,1
25,0,life-me,27,live,1,973,Life,1,1
26,0,life-me,28,other,1,923,Not me,0,1
27,0,life-me,29,lifeless,1,1031,Death,0,1
28,0,life-me,30,alive,1,808,Life,1,1
29,0,life-me,31,self,1,1217,Me,1,1
30,1,death-me,32,die,1,1022,Death,1,2
31,1,death-me,33,breathing,1,1099,Life,0,2
32,1,death-me,34,suicide,1,1265,Death,1,2
33,1,death-me,35,them,1,974,Not me,0,2
34,1,death-me,36,funeral,1,1148,Death,1,2
35,1,death-me,37,their,1,831,Not me,0,2
36,1,death-me,38,other,1,1131,Not me,0,2
37,1,death-me,39,live,1,1072,Life,0,2
38,1,death-me,40,I,1,899,Me,1,2
39,1,death-me,41,deceased,1,1081,Death,1,2
40,1,death-me,42,myself,1,1099,Me,1,2
41,1,death-me,43,survive,1,998,Life,0,2
42,1,death-me,44,alive,1,899,Life,0,2
43,1,death-me,45,they,1,949,Not me,0,2
44,1,death-me,46,self,1,1274,Me,1,2
45,1,death-me,47,mine,1,1265,Me,1,2
46,1,death-me,48,thrive,1,956,Life,0,2
47,1,death-me,49,lifeless,1,1183,Death,1,2
48,1,death-me,50,my,1,915,Me,1,2
49,1,death-me,51,theirs,1,1215,Not me,0,2
50,2,life-me,52,lifeless,1,1525,Death,0,1
51,2,life-me,53,funeral,1,699,Death,0,1
52,2,life-me,54,deceased,1,808,Death,0,1
53,2,life-me,55,self,1,915,Me,1,1
54,2,life-me,56,live,1,1006,Life,1,1
55,2,life-me,57,mine,1,1156,Me,1,1
56,2,life-me,58,theirs,1,897,Not me,0,1
57,2,life-me,59,their,1,898,Not me,0,1
58,2,life-me,60,they,1,817,Not me,0,1
59,2,life-me,61,thrive,1,1032,Life,1,1
60,2,life-me,62,breathing,1,799,Life,1,1
61,2,life-me,63,alive,1,851,Life,1,1
62,2,life-me,64,other,1,848,Not me,0,1
63,2,life-me,65,survive,1,1157,Life,1,1
64,2,life-me,66,die,1,1114,Death,0,1
65,2,life-me,67,myself,1,1099,Me,1,1
66,2,life-me,68,my,1,865,Me,1,1
67,2,life-me,69,them,1,1050,Not me,0,1
68,2,life-me,70,I,1,882,Me,1,1
69,2,life-me,71,suicide,1,1008,Death,0,1
70,3,death-me,72,self,1,957,Me,1,2
71,3,death-me,73,I,1,707,Me,1,2
72,3,death-me,74,theirs,1,781,Not me,0,2
73,3,death-me,75,funeral,1,1023,Death,1,2
74,3,death-me,76,suicide,1,867,Death,1,2
75,3,death-me,77,other,1,1131,Not me,0,2
76,3,death-me,78,lifeless,1,956,Death,1,2
77,3,death-me,79,deceased,1,890,Death,1,2
78,3,death-me,80,their,1,824,Not me,0,2
79,3,death-me,81,thrive,1,1123,Life,0,2
80,3,death-me,82,them,1,856,Not me,0,2
81,3,death-me,83,mine,1,711,Me,1,2
82,3,death-me,84,my,1,889,Me,1,2
83,3,death-me,85,die,1,691,Death,1,2
84,3,death-me,86,survive,1,1498,Life,0,2
85,3,death-me,87,alive,1,1082,Life,0,2
86,3,death-me,88,they,1,957,Not me,0,2
87,3,death-me,89,live,1,994,Life,0,2
88,3,death-me,90,myself,1,1665,Me,1,2
89,3,death-me,91,breathing,1,873,Life,0,2
90,4,life-me,92,deceased,1,1699,Death,0,1
91,4,life-me,93,self,1,1357,Me,1,1
92,4,life-me,94,their,1,1208,Not me,0,1
93,4,life-me,95,my,1,791,Me,1,1
94,4,life-me,96,survive,1,1133,Life,1,1
95,4,life-me,97,lifeless,1,999,Death,0,1
96,4,life-me,98,mine,1,982,Me,1,1
97,4,life-me,99,suicide,1,855,Death,0,1
98,4,life-me,100,myself,1,1274,Me,1,1
99,4,life-me,101,breathing,1,1006,Life,1,1
100,4,life-me,102,funeral,1,1224,Death,0,1
101,4,life-me,103,thrive,1,964,Life,1,1
102,4,life-me,104,them,1,897,Not me,0,1
103,4,life-me,105,other,1,1122,Not me,0,1
104,4,life-me,106,they,1,765,Not me,0,1
105,4,life-me,107,theirs,1,1007,Not me,0,1
106,4,life-me,108,alive,1,1032,Life,1,1
107,4,life-me,109,die,1,680,Death,0,1
108,4,life-me,110,I,1,1119,Me,1,1
109,4,life-me,111,live,1,906,Life,1,1
110,5,death-me,112,my,1,1006,Me,1,2
111,5,death-me,113,them,1,808,Not me,0,2
112,5,death-me,114,thrive,1,1015,Life,0,2
113,5,death-me,115,their,1,871,Not me,0,2
114,5,death-me,116,die,1,1098,Death,1,2
115,5,death-me,117,alive,1,840,Life,0,2
116,5,death-me,118,I,1,824,Me,1,2
117,5,death-me,119,other,1,757,Not me,0,2
118,5,death-me,120,lifeless,1,1807,Death,1,2
119,5,death-me,121,suicide,0,0,Death,1,2
120,5,death-me,122,they,1,970,Not me,0,2
121,5,death-me,123,survive,1,1665,Life,0,2
122,5,death-me,124,breathing,1,1040,Life,0,2
123,5,death-me,125,theirs,1,999,Not me,0,2
124,5,death-me,126,deceased,1,1108,Death,1,2
125,5,death-me,127,funeral,1,1047,Death,1,2
126,5,death-me,128,live,1,1301,Life,0,2
127,5,death-me,129,myself,1,888,Me,1,2
128,5,death-me,130,self,1,937,Me,1,2
129,5,death-me,131,mine,1,998,Me,1,2
130,6,life-me,132,breathing,1,1692,Life,1,1
131,6,life-me,133,survive,1,849,Life,1,1
132,6,life-me,134,I,1,1080,Me,1,1
133,6,life-me,135,myself,1,882,Me,1,1
134,6,life-me,136,funeral,1,823,Death,0,1
135,6,life-me,137,mine,1,818,Me,1,1
136,6,life-me,138,die,1,792,Death,0,1
137,6,life-me,139,deceased,1,780,Death,0,1
138,6,life-me,140,live,1,855,Life,1,1
139,6,life-me,141,their,1,700,Not me,0,1
140,6,life-me,142,lifeless,1,1150,Death,0,1
141,6,life-me,143,other,1,1655,Not me,0,1
142,6,life-me,144,them,1,1040,Not me,0,1
143,6,life-me,145,suicide,1,1589,Death,0,1
144,6,life-me,146,thrive,1,1373,Life,1,1
145,6,life-me,147,self,0,0,Me,1,1
146,6,life-me,148,my,1,849,Me,1,1
147,6,life-me,149,alive,1,977,Life,1,1
148,6,life-me,150,theirs,1,883,Not me,0,1
149,6,life-me,151,they,1,1265,Not me,0,1
150,7,death-me,152,they,1,1263,Not me,0,2
151,7,death-me,153,breathing,1,1549,Life,0,2
152,7,death-me,154,suicide,1,940,Death,1,2
153,7,death-me,155,myself,0,0,Me,1,2
154,7,death-me,156,my,1,1241,Me,1,2
155,7,death-me,157,their,1,799,Not me,0,2
156,7,death-me,158,them,1,848,Not me,0,2
157,7,death-me,159,survive,1,1532,Life,0,2
158,7,death-me,160,die,1,840,Death,1,2
159,7,death-me,161,other,1,1382,Not me,0,2
160,7,death-me,162,thrive,1,989,Life,0,2
161,7,death-me,163,deceased,1,1015,Death,1,2
162,7,death-me,164,live,1,1032,Life,0,2
163,7,death-me,165,I,1,1215,Me,1,2
164,7,death-me,166,self,1,798,Me,1,2
165,7,death-me,167,theirs,1,807,Not me,0,2
166,7,death-me,168,funeral,1,840,Death,1,2
167,7,death-me,169,lifeless,1,923,Death,1,2
168,7,death-me,170,alive,1,1017,Life,0,2
169,7,death-me,171,mine,1,957,Me,1,2
170,8,life-me,172,other,1,1332,Not me,0,1
171,8,life-me,173,alive,1,1057,Life,1,1
172,8,life-me,174,suicide,1,1431,Death,0,1
173,8,life-me,175,my,1,1348,Me,1,1
174,8,life-me,176,mine,1,765,Me,1,1
175,8,life-me,177,self,1,1108,Me,1,1
176,8,life-me,178,live,1,1049,Life,1,1
177,8,life-me,179,their,1,1232,Not me,0,1
178,8,life-me,180,they,1,772,Not me,0,1
179,8,life-me,181,theirs,1,724,Not me,0,1
180,8,life-me,182,funeral,1,848,Death,0,1
181,8,life-me,183,deceased,1,648,Death,0,1
182,8,life-me,184,I,1,708,Me,1,1
183,8,life-me,185,die,1,764,Death,0,1
184,8,life-me,186,them,1,722,Not me,0,1
185,8,life-me,187,myself,1,756,Me,1,1
186,8,life-me,188,lifeless,1,874,Death,0,1
187,8,life-me,189,breathing,1,739,Life,1,1
188,8,life-me,190,survive,1,954,Life,1,1
189,8,life-me,191,thrive,1,973,Life,1,1
190,9,death-me,192,other,1,1623,Not me,0,2
191,9,death-me,193,live,1,1315,Life,0,2
192,9,death-me,194,theirs,1,840,Not me,0,2
193,9,death-me,195,deceased,1,1081,Death,1,2
194,9,death-me,196,funeral,1,822,Death,1,2
195,9,death-me,197,self,1,1282,Me,1,2
196,9,death-me,198,breathing,1,957,Life,0,2
197,9,death-me,199,mine,1,1171,Me,1,2
198,9,death-me,200,thrive,1,1498,Life,0,2
199,9,death-me,201,lifeless,1,841,Death,1,2
200,9,death-me,202,their,1,915,Not me,0,2
201,9,death-me,203,them,1,806,Not me,0,2
202,9,death-me,204,suicide,1,1641,Death,1,2
203,9,death-me,205,they,1,1023,Not me,0,2
204,9,death-me,206,alive,0,0,Life,0,2
205,9,death-me,207,survive,1,1174,Life,0,2
206,9,death-me,208,myself,1,1117,Me,1,2
207,9,death-me,209,I,1,923,Me,1,2
208,9,death-me,210,my,1,948,Me,1,2
209,9,death-me,211,die,1,1092,Death,1,2
210,10,life-me,212,alive,1,1074,Life,1,1
211,10,life-me,213,deceased,1,948,Death,0,1
212,10,life-me,214,they,1,815,Not me,0,1
213,10,life-me,215,survive,1,865,Life,1,1
214,10,life-me,216,die,1,823,Death,0,1
215,10,life-me,217,mine,1,965,Me,1,1
216,10,life-me,218,their,1,732,Not me,0,1
217,10,life-me,219,my,0,0,Me,1,1
218,10,life-me,220,thrive,1,980,Life,1,1
219,10,life-me,221,live,1,915,Life,1,1
220,10,life-me,222,lifeless,1,840,Death,0,1
221,10,life-me,223,them,1,1174,Not me,0,1
222,10,life-me,224,other,1,921,Not me,0,1
223,10,life-me,225,self,1,683,Me,1,1
224,10,life-me,226,theirs,1,915,Not me,0,1
225,10,life-me,227,funeral,1,923,Death,0,1
226,10,life-me,228,breathing,1,1081,Life,1,1
227,10,life-me,229,suicide,1,818,Death,0,1
228,10,life-me,230,myself,1,923,Me,1,1
229,10,life-me,231,I,1,857,Me,1,1
230,11,death-me,232,I,1,1074,Me,1,2
231,11,death-me,233,them,1,991,Not me,0,2
232,11,death-me,234,funeral,1,747,Death,1,2
233,11,death-me,235,my,1,1415,Me,1,2
234,11,death-me,236,theirs,1,824,Not me,0,2
235,11,death-me,237,self,1,1249,Me,1,2
236,11,death-me,238,live,1,999,Life,0,2
237,11,death-me,239,myself,1,913,Me,1,2
238,11,death-me,240,die,1,973,Death,1,2
239,11,death-me,241,mine,0,0,Me,1,2
240,11,death-me,242,lifeless,1,1073,Death,1,2
241,11,death-me,243,survive,1,1338,Life,0,2
242,11,death-me,244,alive,1,1018,Life,0,2
243,11,death-me,245,breathing,1,1123,Life,0,2
244,11,death-me,246,their,1,815,Not me,0,2
245,11,death-me,247,thrive,1,948,Life,0,2
246,11,death-me,248,other,1,1290,Not me,0,2
247,11,death-me,249,deceased,1,1166,Death,1,2
248,11,death-me,250,they,1,1363,Not me,0,2
249,11,death-me,251,suicide,1,1156,Death,1,2
250,12,life-me,252,suicide,1,1306,Death,0,1
251,12,life-me,253,them,1,783,Not me,0,1
252,12,life-me,254,their,1,953,Not me,0,1
253,12,life-me,255,lifeless,1,776,Death,0,1
254,12,life-me,256,deceased,1,772,Death,0,1
255,12,life-me,257,die,1,1007,Death,0,1
256,12,life-me,258,live,1,743,Life,1,1
257,12,life-me,259,other,1,822,Not me,0,1
258,12,life-me,260,funeral,1,898,Death,0,1
259,12,life-me,261,survive,1,1122,Life,1,1
260,12,life-me,262,I,1,815,Me,1,1
261,12,life-me,263,self,1,924,Me,1,1
262,12,life-me,264,alive,1,857,Life,1,1
263,12,life-me,265,theirs,1,882,Not me,0,1
264,12,life-me,266,my,1,906,Me,1,1
265,12,life-me,267,thrive,1,1207,Life,1,1
266,12,life-me,268,breathing,1,831,Life,1,1
267,12,life-me,269,myself,1,807,Me,1,1
268,12,life-me,270,they,1,765,Not me,0,1
269,12,life-me,271,mine,1,773,Me,1,1
270,13,death-me,272,deceased,1,1973,Death,1,2
271,13,death-me,273,they,1,848,Not me,0,2
272,13,death-me,274,thrive,1,1031,Life,0,2
273,13,death-me,275,lifeless,1,1057,Death,1,2
274,13,death-me,276,I,1,1007,Me,1,2
275,13,death-me,277,alive,1,873,Life,0,2
276,13,death-me,278,survive,1,1232,Life,0,2
277,13,death-me,279,their,1,1148,Not me,0,2
278,13,death-me,280,die,0,0,Death,1,2
279,13,death-me,281,suicide,1,1079,Death,1,2
280,13,death-me,282,myself,1,1507,Me,1,2
281,13,death-me,283,theirs,1,1024,Not me,0,2
282,13,death-me,284,funeral,1,1033,Death,1,2
283,13,death-me,285,self,1,954,Me,1,2
284,13,death-me,286,live,1,1032,Life,0,2
285,13,death-me,287,other,1,1915,Not me,0,2
286,13,death-me,288,my,1,1180,Me,1,2
287,13,death-me,289,mine,1,1016,Me,1,2
288,13,death-me,290,breathing,1,1097,Life,0,2
289,13,death-me,291,them,1,1032,Not me,0,2
290,14,life-me,292,them,1,1049,Not me,0,1
291,14,life-me,293,live,1,1716,Life,1,1
292,14,life-me,294,other,1,879,Not me,0,1
293,14,life-me,295,breathing,1,666,Life,1,1
294,14,life-me,296,I,1,682,Me,1,1
295,14,life-me,297,myself,1,690,Me,1,1
296,14,life-me,298,mine,1,782,Me,1,1
297,14,life-me,299,deceased,1,751,Death,0,1
298,14,life-me,300,my,1,768,Me,1,1
299,14,life-me,301,survive,1,906,Life,1,1
300,14,life-me,302,their,1,715,Not me,0,1
301,14,life-me,303,self,1,1132,Me,1,1
302,14,life-me,304,die,1,915,Death,0,1
303,14,life-me,305,they,1,1092,Not me,0,1
304,14,life-me,306,funeral,1,1090,Death,0,1
305,14,life-me,307,thrive,1,922,Life,1,1
306,14,life-me,308,alive,1,899,Life,1,1
307,14,life-me,309,theirs,1,907,Not me,0,1
308,14,life-me,310,lifeless,1,866,Death,0,1
309,14,life-me,311,suicide,1,847,Death,0,1
310,15,death-me,312,live,1,1284,Life,0,2
311,15,death-me,313,I,1,1122,Me,1,2
312,15,death-me,314,breathing,1,848,Life,0,2
313,15,death-me,315,suicide,1,857,Death,1,2
314,15,death-me,316,other,1,831,Not me,0,2
315,15,death-me,317,them,1,807,Not me,0,2
316,15,death-me,318,myself,1,694,Me,1,2
317,15,death-me,319,thrive,1,981,Life,0,2
318,15,death-me,320,die,1,831,Death,1,2
319,15,death-me,321,lifeless,1,765,Death,1,2
320,15,death-me,322,my,1,218,Me,1,2
321,15,death-me,323,they,1,1690,Not me,0,2
322,15,death-me,324,theirs,1,874,Not me,0,2
323,15,death-me,325,mine,1,740,Me,1,2
324,15,death-me,326,their,1,1098,Not me,0,2
325,15,death-me,327,deceased,1,865,Death,1,2
326,15,death-me,328,survive,1,1789,Life,0,2
327,15,death-me,329,alive,1,973,Life,0,2
328,15,death-me,330,funeral,1,1039,Death,1,2
329,15,death-me,331,self,1,873,Me,1,2
330,16,life-me,332,mine,1,799,Me,1,1
331,16,life-me,333,my,1,631,Me,1,1
332,16,life-me,334,theirs,1,565,Not me,0,1
333,16,life-me,335,I,1,823,Me,1,1
334,16,life-me,336,alive,1,808,Life,1,1
335,16,life-me,337,self,1,865,Me,1,1
336,16,life-me,338,their,1,667,Not me,0,1
337,16,life-me,339,them,1,690,Not me,0,1
338,16,life-me,340,thrive,1,807,Life,1,1
339,16,life-me,341,myself,1,1131,Me,1,1
340,16,life-me,342,live,1,858,Life,1,1
341,16,life-me,343,funeral,1,715,Death,0,1
342,16,life-me,344,deceased,1,773,Death,0,1
343,16,life-me,345,they,1,1264,Not me,0,1
344,16,life-me,346,suicide,1,1373,Death,0,1
345,16,life-me,347,die,1,774,Death,0,1
346,16,life-me,348,lifeless,1,756,Death,0,1
347,16,life-me,349,breathing,1,990,Life,1,1
348,16,life-me,350,survive,1,898,Life,1,1
349,16,life-me,351,other,1,882,Not me,0,1
350,17,death-me,352,I,1,1064,Me,1,2
351,17,death-me,353,theirs,1,984,Not me,0,2
352,17,death-me,354,mine,1,747,Me,1,2
353,17,death-me,355,funeral,1,1257,Death,1,2
354,17,death-me,356,they,1,1348,Not me,0,2
355,17,death-me,357,my,1,691,Me,1,2
356,17,death-me,358,alive,1,1298,Life,0,2
357,17,death-me,359,them,1,831,Not me,0,2
358,17,death-me,360,breathing,1,1456,Life,0,2
359,17,death-me,361,self,1,1179,Me,1,2
360,17,death-me,362,other,1,1106,Not me,0,2
361,17,death-me,363,their,1,1056,Not me,0,2
362,17,death-me,364,thrive,1,1045,Life,0,2
363,17,death-me,365,suicide,1,1123,Death,1,2
364,17,death-me,366,lifeless,1,948,Death,1,2
365,17,death-me,367,die,1,1122,Death,1,2
366,17,death-me,368,survive,1,1707,Life,0,2
367,17,death-me,369,deceased,1,1723,Death,1,2
368,17,death-me,370,live,1,982,Life,0,2
369,17,death-me,371,myself,1,1466,Me,1,2
