BlockNumber,BlockType,TrialNum,Stim,Response,ResponseTime
-1,death-me,2,I,0,0
-1,death-me,3,their,1,1357
-1,death-me,4,suicide,1,1155
-1,death-me,5,live,1,1107
-1,death-me,6,deceased,1,1398
-1,death-me,7,alive,1,1056
-1,death-me,8,mine,1,1413
-1,death-me,9,funeral,1,998
-1,death-me,10,they,1,790
-1,death-me,11,survive,1,955
0,life-me,12,mine,1,972
0,life-me,13,I,1,1058
0,life-me,14,myself,1,721
0,life-me,15,suicide,1,1023
0,life-me,16,my,1,1333
0,life-me,17,die,1,1373
0,life-me,18,they,1,1198
0,life-me,19,them,1,666
0,life-me,20,survive,1,1039
0,life-me,21,thrive,1,1449
0,life-me,22,deceased,1,891
0,life-me,23,theirs,1,1057
0,life-me,24,funeral,1,1131
0,life-me,25,breathing,1,848
0,life-me,26,their,1,840
0,life-me,27,live,1,973
0,life-me,28,other,1,923
0,life-me,29,lifeless,1,1031
0,life-me,30,alive,1,808
0,life-me,31,self,1,1217
1,death-me,32,die,1,1022
1,death-me,33,breathing,1,1099
1,death-me,34,suicide,1,1265
1,death-me,35,them,1,974
1,death-me,36,funeral,1,1148
1,death-me,37,their,1,831
1,death-me,38,other,1,1131
1,death-me,39,live,1,1072
1,death-me,40,I,1,899
1,death-me,41,deceased,1,1081
1,death-me,42,myself,1,1099
1,death-me,43,survive,1,998
1,death-me,44,alive,1,899
1,death-me,45,they,1,949
1,death-me,46,self,1,1274
1,death-me,47,mine,1,1265
1,death-me,48,thrive,1,956
1,death-me,49,lifeless,1,1183
1,death-me,50,my,1,915
1,death-me,51,theirs,1,1215
2,life-me,52,lifeless,1,1525
2,life-me,53,funeral,1,699
2,life-me,54,deceased,1,808
2,life-me,55,self,1,915
2,life-me,56,live,1,1006
2,life-me,57,mine,1,1156
2,life-me,58,theirs,1,897
2,life-me,59,their,1,898
2,life-me,60,they,1,817
2,life-me,61,thrive,1,1032
2,life-me,62,breathing,1,799
2,life-me,63,alive,1,851
2,life-me,64,other,1,848
2,life-me,65,survive,1,1157
2,life-me,66,die,1,1114
2,life-me,67,myself,1,1099
2,life-me,68,my,1,865
2,life-me,69,them,1,1050
2,life-me,70,I,1,882
2,life-me,71,suicide,1,1008
3,death-me,72,self,1,957
3,death-me,73,I,1,707
3,death-me,74,theirs,1,781
3,death-me,75,funeral,1,1023
3,death-me,76,suicide,1,867
3,death-me,77,other,1,1131
3,death-me,78,lifeless,1,956
3,death-me,79,deceased,1,890
3,death-me,80,their,1,824
3,death-me,81,thrive,1,1123
3,death-me,82,them,1,856
3,death-me,83,mine,1,711
3,death-me,84,my,1,889
3,death-me,85,die,1,691
3,death-me,86,survive,1,1498
3,death-me,87,alive,1,1082
3,death-me,88,they,1,957
3,death-me,89,live,1,994
3,death-me,90,myself,1,1665
3,death-me,91,breathing,1,873
4,life-me,92,deceased,1,1699
4,life-me,93,self,1,1357
4,life-me,94,their,1,1208
4,life-me,95,my,1,791
4,life-me,96,survive,1,1133
4,life-me,97,lifeless,1,999
4,life-me,98,mine,1,982
4,life-me,99,suicide,1,855
4,life-me,100,myself,1,1274
4,life-me,101,breathing,1,1006
4,life-me,102,funeral,1,1224
4,life-me,103,thrive,1,964
4,life-me,104,them,1,897
4,life-me,105,other,1,1122
4,life-me,106,they,1,765
4,life-me,107,theirs,1,1007
4,life-me,108,alive,1,1032
4,life-me,109,die,1,680
4,life-me,110,I,1,1119
4,life-me,111,live,1,906
5,death-me,112,my,1,1006
5,death-me,113,them,1,808
5,death-me,114,thrive,1,1015
5,death-me,115,their,1,871
5,death-me,116,die,1,1098
5,death-me,117,alive,1,840
5,death-me,118,I,1,824
5,death-me,119,other,1,757
5,death-me,120,lifeless,1,1807
5,death-me,121,suicide,0,0
5,death-me,122,they,1,970
5,death-me,123,survive,1,1665
5,death-me,124,breathing,1,1040
5,death-me,125,theirs,1,999
5,death-me,126,deceased,1,1108
5,death-me,127,funeral,1,1047
5,death-me,128,live,1,1301
5,death-me,129,myself,1,888
5,death-me,130,self,1,937
5,death-me,131,mine,1,998
6,life-me,132,breathing,1,1692
6,life-me,133,survive,1,849
6,life-me,134,I,1,1080
6,life-me,135,myself,1,882
6,life-me,136,funeral,1,823
6,life-me,137,mine,1,818
6,life-me,138,die,1,792
6,life-me,139,deceased,1,780
6,life-me,140,live,1,855
6,life-me,141,their,1,700
6,life-me,142,lifeless,1,1150
6,life-me,143,other,1,1655
6,life-me,144,them,1,1040
6,life-me,145,suicide,1,1589
6,life-me,146,thrive,1,1373
6,life-me,147,self,0,0
6,life-me,148,my,1,849
6,life-me,149,alive,1,977
6,life-me,150,theirs,1,883
6,life-me,151,they,1,1265
7,death-me,152,they,1,1263
7,death-me,153,breathing,1,1549
7,death-me,154,suicide,1,940
7,death-me,155,myself,0,0
7,death-me,156,my,1,1241
7,death-me,157,their,1,799
7,death-me,158,them,1,848
7,death-me,159,survive,1,1532
7,death-me,160,die,1,840
7,death-me,161,other,1,1382
7,death-me,162,thrive,1,989
7,death-me,163,deceased,1,1015
7,death-me,164,live,1,1032
7,death-me,165,I,1,1215
7,death-me,166,self,1,798
7,death-me,167,theirs,1,807
7,death-me,168,funeral,1,840
7,death-me,169,lifeless,1,923
7,death-me,170,alive,1,1017
7,death-me,171,mine,1,957
8,life-me,172,other,1,1332
8,life-me,173,alive,1,1057
8,life-me,174,suicide,1,1431
8,life-me,175,my,1,1348
8,life-me,176,mine,1,765
8,life-me,177,self,1,1108
8,life-me,178,live,1,1049
8,life-me,179,their,1,1232
8,life-me,180,they,1,772
8,life-me,181,theirs,1,724
8,life-me,182,funeral,1,848
8,life-me,183,deceased,1,648
8,life-me,184,I,1,708
8,life-me,185,die,1,764
8,life-me,186,them,1,722
8,life-me,187,myself,1,756
8,life-me,188,lifeless,1,874
8,life-me,189,breathing,1,739
8,life-me,190,survive,1,954
8,life-me,191,thrive,1,973
9,death-me,192,other,1,1623
9,death-me,193,live,1,1315
9,death-me,194,theirs,1,840
9,death-me,195,deceased,1,1081
9,death-me,196,funeral,1,822
9,death-me,197,self,1,1282
9,death-me,198,breathing,1,957
9,death-me,199,mine,1,1171
9,death-me,200,thrive,1,1498
9,death-me,201,lifeless,1,841
9,death-me,202,their,1,915
9,death-me,203,them,1,806
9,death-me,204,suicide,1,1641
9,death-me,205,they,1,1023
9,death-me,206,alive,0,0
9,death-me,207,survive,1,1174
9,death-me,208,myself,1,1117
9,death-me,209,I,1,923
9,death-me,210,my,1,948
9,death-me,211,die,1,1092
10,life-me,212,alive,1,1074
10,life-me,213,deceased,1,948
10,life-me,214,they,1,815
10,life-me,215,survive,1,865
10,life-me,216,die,1,823
10,life-me,217,mine,1,965
10,life-me,218,their,1,732
10,life-me,219,my,0,0
10,life-me,220,thrive,1,980
10,life-me,221,live,1,915
10,life-me,222,lifeless,1,840
10,life-me,223,them,1,1174
10,life-me,224,other,1,921
10,life-me,225,self,1,683
10,life-me,226,theirs,1,915
10,life-me,227,funeral,1,923
10,life-me,228,breathing,1,1081
10,life-me,229,suicide,1,818
10,life-me,230,myself,1,923
10,life-me,231,I,1,857
11,death-me,232,I,1,1074
11,death-me,233,them,1,991
11,death-me,234,funeral,1,747
11,death-me,235,my,1,1415
11,death-me,236,theirs,1,824
11,death-me,237,self,1,1249
11,death-me,238,live,1,999
11,death-me,239,myself,1,913
11,death-me,240,die,1,973
11,death-me,241,mine,0,0
11,death-me,242,lifeless,1,1073
11,death-me,243,survive,1,1338
11,death-me,244,alive,1,1018
11,death-me,245,breathing,1,1123
11,death-me,246,their,1,815
11,death-me,247,thrive,1,948
11,death-me,248,other,1,1290
11,death-me,249,deceased,1,1166
11,death-me,250,they,1,1363
11,death-me,251,suicide,1,1156
12,life-me,252,suicide,1,1306
12,life-me,253,them,1,783
12,life-me,254,their,1,953
12,life-me,255,lifeless,1,776
12,life-me,256,deceased,1,772
12,life-me,257,die,1,1007
12,life-me,258,live,1,743
12,life-me,259,other,1,822
12,life-me,260,funeral,1,898
12,life-me,261,survive,1,1122
12,life-me,262,I,1,815
12,life-me,263,self,1,924
12,life-me,264,alive,1,857
12,life-me,265,theirs,1,882
12,life-me,266,my,1,906
12,life-me,267,thrive,1,1207
12,life-me,268,breathing,1,831
12,life-me,269,myself,1,807
12,life-me,270,they,1,765
12,life-me,271,mine,1,773
13,death-me,272,deceased,1,1973
13,death-me,273,they,1,848
13,death-me,274,thrive,1,1031
13,death-me,275,lifeless,1,1057
13,death-me,276,I,1,1007
13,death-me,277,alive,1,873
13,death-me,278,survive,1,1232
13,death-me,279,their,1,1148
13,death-me,280,die,0,0
13,death-me,281,suicide,1,1079
13,death-me,282,myself,1,1507
13,death-me,283,theirs,1,1024
13,death-me,284,funeral,1,1033
13,death-me,285,self,1,954
13,death-me,286,live,1,1032
13,death-me,287,other,1,1915
13,death-me,288,my,1,1180
13,death-me,289,mine,1,1016
13,death-me,290,breathing,1,1097
13,death-me,291,them,1,1032
14,life-me,292,them,1,1049
14,life-me,293,live,1,1716
14,life-me,294,other,1,879
14,life-me,295,breathing,1,666
14,life-me,296,I,1,682
14,life-me,297,myself,1,690
14,life-me,298,mine,1,782
14,life-me,299,deceased,1,751
14,life-me,300,my,1,768
14,life-me,301,survive,1,906
14,life-me,302,their,1,715
14,life-me,303,self,1,1132
14,life-me,304,die,1,915
14,life-me,305,they,1,1092
14,life-me,306,funeral,1,1090
14,life-me,307,thrive,1,922
14,life-me,308,alive,1,899
14,life-me,309,theirs,1,907
14,life-me,310,lifeless,1,866
14,life-me,311,suicide,1,847
15,death-me,312,live,1,1284
15,death-me,313,I,1,1122
15,death-me,314,breathing,1,848
15,death-me,315,suicide,1,857
15,death-me,316,other,1,831
15,death-me,317,them,1,807
15,death-me,318,myself,1,694
15,death-me,319,thrive,1,981
15,death-me,320,die,1,831
15,death-me,321,lifeless,1,765
15,death-me,322,my,1,218
15,death-me,323,they,1,1690
15,death-me,324,theirs,1,874
15,death-me,325,mine,1,740
15,death-me,326,their,1,1098
15,death-me,327,deceased,1,865
15,death-me,328,survive,1,1789
15,death-me,329,alive,1,973
15,death-me,330,funeral,1,1039
15,death-me,331,self,1,873
16,life-me,332,mine,1,799
16,life-me,333,my,1,631
16,life-me,334,theirs,1,565
16,life-me,335,I,1,823
16,life-me,336,alive,1,808
16,life-me,337,self,1,865
16,life-me,338,their,1,667
16,life-me,339,them,1,690
16,life-me,340,thrive,1,807
16,life-me,341,myself,1,1131
16,life-me,342,live,1,858
16,life-me,343,funeral,1,715
16,life-me,344,deceased,1,773
16,life-me,345,they,1,1264
16,life-me,346,suicide,1,1373
16,life-me,347,die,1,774
16,life-me,348,lifeless,1,756
16,life-me,349,breathing,1,990
16,life-me,350,survive,1,898
16,life-me,351,other,1,882
17,death-me,352,I,1,1064
17,death-me,353,theirs,1,984
17,death-me,354,mine,1,747
17,death-me,355,funeral,1,1257
17,death-me,356,they,1,1348
17,death-me,357,my,1,691
17,death-me,358,alive,1,1298
17,death-me,359,them,1,831
17,death-me,360,breathing,1,1456
17,death-me,361,self,1,1179
17,death-me,362,other,1,1106
17,death-me,363,their,1,1056
17,death-me,364,thrive,1,1045
17,death-me,365,suicide,1,1123
17,death-me,366,lifeless,1,948
17,death-me,367,die,1,1122
17,death-me,368,survive,1,1707
17,death-me,369,deceased,1,1723
17,death-me,370,live,1,982
17,death-me,371,myself,1,1466
