BlockNumber,BlockType,TrialNum,Stim,Response,ResponseTime
-1,life-me,2,myself,0,0
-1,life-me,3,other,0,0
-1,life-me,4,lifeless,1,1673
-1,life-me,5,survive,1,1556
-1,life-me,6,funeral,1,1923
-1,life-me,7,deceased,0,0
-1,life-me,8,mine,1,982
-1,life-me,9,theirs,0,0
-1,life-me,10,my,1,1162
-1,life-me,11,breathing,0,0
0,death-me,12,die,1,1390
0,death-me,13,suicide,1,1523
0,death-me,14,survive,0,0
0,death-me,15,other,0,0
0,death-me,16,my,1,824
0,death-me,17,theirs,0,0
0,death-me,18,deceased,1,970
0,death-me,19,alive,1,1849
0,death-me,20,I,1,1483
0,death-me,21,their,0,0
0,death-me,22,self,1,1190
0,death-me,23,mine,1,923
0,death-me,24,breathing,1,1456
0,death-me,25,them,1,1256
0,death-me,26,they,1,1566
0,death-me,27,live,1,1465
0,death-me,28,funeral,1,1006
0,death-me,29,lifeless,1,885
0,death-me,30,thrive,1,884
0,death-me,31,myself,1,887
1,life-me,32,their,1,1989
1,life-me,33,funeral,1,1710
1,life-me,34,them,1,1096
1,life-me,35,lifeless,1,1934
1,life-me,36,theirs,1,899
1,life-me,37,other,1,1188
1,life-me,38,deceased,1,1131
1,life-me,39,myself,1,791
1,life-me,40,live,1,1541
1,life-me,41,breathing,1,1032
1,life-me,42,self,1,1381
1,life-me,43,die,1,1523
1,life-me,44,thrive,1,1025
1,life-me,45,mine,1,1023
1,life-me,46,they,1,856
1,life-me,47,alive,1,1380
1,life-me,48,suicide,1,856
1,life-me,49,my,1,1191
1,life-me,50,survive,1,1873
1,life-me,51,I,1,1006
2,death-me,52,them,1,1358
2,death-me,53,live,1,1193
2,death-me,54,deceased,1,1013
2,death-me,55,self,1,697
2,death-me,56,my,1,681
2,death-me,57,breathing,1,1147
2,death-me,58,thrive,1,953
2,death-me,59,die,1,873
2,death-me,60,myself,1,1032
2,death-me,61,I,1,616
2,death-me,62,alive,1,1316
2,death-me,63,other,1,865
2,death-me,64,survive,1,982
2,death-me,65,funeral,1,732
2,death-me,66,their,1,771
2,death-me,67,they,1,622
2,death-me,68,theirs,1,590
2,death-me,69,lifeless,1,1136
2,death-me,70,suicide,1,665
2,death-me,71,mine,1,990
3,life-me,72,thrive,1,1299
3,life-me,73,myself,1,707
3,life-me,74,my,1,789
3,life-me,75,deceased,1,889
3,life-me,76,breathing,1,1441
3,life-me,77,I,1,657
3,life-me,78,die,1,781
3,life-me,79,them,1,806
3,life-me,80,alive,1,1032
3,life-me,81,theirs,1,639
3,life-me,82,suicide,1,906
3,life-me,83,other,1,923
3,life-me,84,survive,1,948
3,life-me,85,lifeless,1,931
3,life-me,86,live,1,788
3,life-me,87,self,1,665
3,life-me,88,they,1,673
3,life-me,89,mine,1,838
3,life-me,90,their,1,698
3,life-me,91,funeral,1,902
4,death-me,92,their,1,740
4,death-me,93,suicide,1,1006
4,death-me,94,self,1,682
4,death-me,95,live,1,732
4,death-me,96,my,1,858
4,death-me,97,I,1,648
4,death-me,98,theirs,1,590
4,death-me,99,deceased,1,724
4,death-me,100,survive,1,956
4,death-me,101,other,1,698
4,death-me,102,funeral,1,799
4,death-me,103,myself,1,840
4,death-me,104,breathing,1,856
4,death-me,105,die,1,887
4,death-me,106,them,1,674
4,death-me,107,mine,1,757
4,death-me,108,lifeless,1,838
4,death-me,109,they,1,674
4,death-me,110,thrive,1,982
4,death-me,111,alive,1,1028
5,life-me,112,I,1,1149
5,life-me,113,they,1,898
5,life-me,114,myself,1,790
5,life-me,115,die,1,772
5,life-me,116,their,1,707
5,life-me,117,other,1,691
5,life-me,118,mine,1,725
5,life-me,119,them,1,798
5,life-me,120,breathing,1,965
5,life-me,121,lifeless,1,765
5,life-me,122,funeral,1,898
5,life-me,123,deceased,1,540
5,life-me,124,my,1,715
5,life-me,125,thrive,1,782
5,life-me,126,theirs,1,922
5,life-me,127,survive,1,699
5,life-me,128,live,1,808
5,life-me,129,alive,1,1024
5,life-me,130,suicide,1,749
5,life-me,131,self,1,1057
6,death-me,132,theirs,1,1424
6,death-me,133,thrive,1,823
6,death-me,134,self,1,674
6,death-me,135,survive,1,765
6,death-me,136,my,1,799
6,death-me,137,alive,1,831
6,death-me,138,funeral,1,833
6,death-me,139,other,1,590
6,death-me,140,breathing,1,1358
6,death-me,141,live,1,981
6,death-me,142,mine,1,798
6,death-me,143,lifeless,1,676
6,death-me,144,suicide,1,682
6,death-me,145,their,1,532
6,death-me,146,die,1,664
6,death-me,147,myself,1,790
6,death-me,148,they,1,741
6,death-me,149,I,1,698
6,death-me,150,deceased,1,758
6,death-me,151,them,1,757
7,life-me,152,myself,1,1013
7,life-me,153,self,1,740
7,life-me,154,suicide,1,673
7,life-me,155,deceased,1,1115
7,life-me,156,thrive,1,897
7,life-me,157,I,1,798
7,life-me,158,theirs,1,601
7,life-me,159,funeral,1,872
7,life-me,160,alive,1,928
7,life-me,161,lifeless,1,1016
7,life-me,162,their,1,1116
7,life-me,163,mine,1,815
7,life-me,164,other,1,991
7,life-me,165,them,1,699
7,life-me,166,they,1,664
7,life-me,167,breathing,1,1149
7,life-me,168,live,1,632
7,life-me,169,my,1,749
7,life-me,170,survive,1,832
7,life-me,171,die,1,707
8,death-me,172,self,1,1132
8,death-me,173,breathing,1,823
8,death-me,174,suicide,1,840
8,death-me,175,I,1,791
8,death-me,176,thrive,1,889
8,death-me,177,they,1,692
8,death-me,178,lifeless,1,981
8,death-me,179,survive,1,966
8,death-me,180,my,1,607
8,death-me,181,die,1,699
8,death-me,182,funeral,1,605
8,death-me,183,live,1,852
8,death-me,184,their,1,847
8,death-me,185,myself,1,715
8,death-me,186,theirs,1,841
8,death-me,187,them,1,573
8,death-me,188,deceased,1,740
8,death-me,189,other,1,715
8,death-me,190,mine,1,847
8,death-me,191,alive,1,789
9,life-me,192,survive,1,1039
9,life-me,193,their,1,648
9,life-me,194,myself,1,813
9,life-me,195,die,1,906
9,life-me,196,theirs,1,930
9,life-me,197,them,1,615
9,life-me,198,mine,1,657
9,life-me,199,I,1,711
9,life-me,200,breathing,1,557
9,life-me,201,deceased,1,689
9,life-me,202,funeral,1,832
9,life-me,203,self,1,756
9,life-me,204,suicide,1,825
9,life-me,205,lifeless,1,924
9,life-me,206,live,1,998
9,life-me,207,alive,1,614
9,life-me,208,my,1,805
9,life-me,209,they,1,671
9,life-me,210,thrive,1,948
9,life-me,211,other,1,631
10,death-me,212,die,1,982
10,death-me,213,them,1,657
10,death-me,214,I,1,998
10,death-me,215,theirs,1,698
10,death-me,216,live,1,773
10,death-me,217,myself,1,1209
10,death-me,218,other,1,940
10,death-me,219,thrive,1,1132
10,death-me,220,alive,1,990
10,death-me,221,suicide,1,881
10,death-me,222,survive,1,773
10,death-me,223,their,1,673
10,death-me,224,funeral,1,673
10,death-me,225,mine,1,755
10,death-me,226,breathing,1,748
10,death-me,227,self,1,765
10,death-me,228,my,1,841
10,death-me,229,deceased,1,756
10,death-me,230,lifeless,1,1039
10,death-me,231,they,1,648
11,life-me,232,them,1,974
11,life-me,233,my,1,723
11,life-me,234,alive,1,963
11,life-me,235,they,1,633
11,life-me,236,funeral,1,824
11,life-me,237,theirs,1,735
11,life-me,238,I,1,741
11,life-me,239,myself,1,732
11,life-me,240,die,1,915
11,life-me,241,self,1,841
11,life-me,242,suicide,1,1423
11,life-me,243,survive,1,982
11,life-me,244,mine,1,707
11,life-me,245,thrive,1,1157
11,life-me,246,other,1,673
11,life-me,247,breathing,1,769
11,life-me,248,their,1,1007
11,life-me,249,deceased,1,898
11,life-me,250,lifeless,1,1049
11,life-me,251,live,1,651
12,death-me,252,funeral,1,798
12,death-me,253,them,1,716
12,death-me,254,mine,1,837
12,death-me,255,die,1,882
12,death-me,256,theirs,1,840
12,death-me,257,other,1,703
12,death-me,258,deceased,1,853
12,death-me,259,live,1,804
12,death-me,260,thrive,1,1390
12,death-me,261,survive,1,1023
12,death-me,262,they,1,890
12,death-me,263,breathing,1,1140
12,death-me,264,their,1,864
12,death-me,265,myself,1,758
12,death-me,266,I,1,573
12,death-me,267,lifeless,1,753
12,death-me,268,alive,1,932
12,death-me,269,my,1,969
12,death-me,270,self,1,981
12,death-me,271,suicide,1,893
13,life-me,272,breathing,1,740
13,life-me,273,deceased,1,815
13,life-me,274,thrive,1,824
13,life-me,275,myself,1,848
13,life-me,276,them,1,814
13,life-me,277,my,1,990
13,life-me,278,live,1,1412
13,life-me,279,I,1,565
13,life-me,280,other,1,649
13,life-me,281,survive,1,955
13,life-me,282,their,1,605
13,life-me,283,theirs,1,531
13,life-me,284,alive,1,676
13,life-me,285,die,1,689
13,life-me,286,suicide,1,824
13,life-me,287,they,1,1340
13,life-me,288,mine,1,625
13,life-me,289,self,1,764
13,life-me,290,lifeless,1,663
13,life-me,291,funeral,1,1383
14,death-me,292,other,1,983
14,death-me,293,theirs,1,690
14,death-me,294,funeral,1,647
14,death-me,295,suicide,1,557
14,death-me,296,their,1,556
14,death-me,297,I,1,1040
14,death-me,298,live,1,855
14,death-me,299,lifeless,1,966
14,death-me,300,die,1,587
14,death-me,301,deceased,1,632
14,death-me,302,myself,1,809
14,death-me,303,they,1,613
14,death-me,304,alive,1,973
14,death-me,305,them,1,549
14,death-me,306,my,1,640
14,death-me,307,self,1,673
14,death-me,308,breathing,1,791
14,death-me,309,mine,1,790
14,death-me,310,thrive,1,1940
14,death-me,311,survive,1,1073
15,life-me,312,self,1,1140
15,life-me,313,breathing,1,606
15,life-me,314,survive,1,800
15,life-me,315,live,1,689
15,life-me,316,other,1,596
15,life-me,317,alive,1,790
15,life-me,318,deceased,1,708
15,life-me,319,I,1,833
15,life-me,320,suicide,1,838
15,life-me,321,my,1,1008
15,life-me,322,funeral,1,1256
15,life-me,323,thrive,1,857
15,life-me,324,they,1,815
15,life-me,325,their,1,507
15,life-me,326,theirs,1,465
15,life-me,327,them,1,506
15,life-me,328,mine,1,591
15,life-me,329,myself,1,581
15,life-me,330,die,1,740
15,life-me,331,lifeless,1,891
16,death-me,332,they,1,1024
16,death-me,333,other,1,675
16,death-me,334,myself,1,848
16,death-me,335,self,1,849
16,death-me,336,live,1,793
16,death-me,337,die,1,707
16,death-me,338,theirs,1,844
16,death-me,339,alive,1,948
16,death-me,340,suicide,1,730
16,death-me,341,survive,1,1133
16,death-me,342,deceased,1,866
16,death-me,343,lifeless,1,999
16,death-me,344,mine,1,731
16,death-me,345,funeral,1,1282
16,death-me,346,breathing,1,650
16,death-me,347,thrive,1,1091
16,death-me,348,them,1,782
16,death-me,349,my,1,682
16,death-me,350,their,1,823
16,death-me,351,I,1,690
17,life-me,352,other,1,757
17,life-me,353,deceased,1,1541
17,life-me,354,my,1,899
17,life-me,355,they,1,799
17,life-me,356,suicide,1,837
17,life-me,357,lifeless,1,973
17,life-me,358,live,1,617
17,life-me,359,mine,1,664
17,life-me,360,theirs,1,1206
17,life-me,361,breathing,1,1182
17,life-me,362,myself,1,749
17,life-me,363,their,1,840
17,life-me,364,thrive,1,774
17,life-me,365,self,1,922
17,life-me,366,funeral,1,816
17,life-me,367,alive,1,756
17,life-me,368,I,1,766
17,life-me,369,die,1,823
17,life-me,370,survive,1,621
17,life-me,371,them,1,932
